condition,img,trials.thisRepN,trials.thisTrialN,trials.thisN,trials.thisIndex,date,frameRate,expName,Session,Participant,
img_left,common/recall_cross_IL.png,0,0,0,2,2018_Oct_01_1901,60.00070496625731,Real/Imagery motor movement,1,17,
imag_third,common/recall_cross_IT.png,0,1,1,4,2018_Oct_01_1901,60.00070496625731,Real/Imagery motor movement,1,17,
img_right,common/recall_cross_IR.png,0,2,2,3,2018_Oct_01_1901,60.00070496625731,Real/Imagery motor movement,1,17,
exec_left,common/recall_cross_EL.png,0,3,3,0,2018_Oct_01_1901,60.00070496625731,Real/Imagery motor movement,1,17,
exec_right,common/recall_cross_ER.png,0,4,4,1,2018_Oct_01_1901,60.00070496625731,Real/Imagery motor movement,1,17,
img_left,common/recall_cross_IL.png,1,0,5,2,2018_Oct_01_1901,60.00070496625731,Real/Imagery motor movement,1,17,
img_right,common/recall_cross_IR.png,1,1,6,3,2018_Oct_01_1901,60.00070496625731,Real/Imagery motor movement,1,17,
imag_third,common/recall_cross_IT.png,1,2,7,4,2018_Oct_01_1901,60.00070496625731,Real/Imagery motor movement,1,17,
exec_left,common/recall_cross_EL.png,1,3,8,0,2018_Oct_01_1901,60.00070496625731,Real/Imagery motor movement,1,17,
exec_right,common/recall_cross_ER.png,1,4,9,1,2018_Oct_01_1901,60.00070496625731,Real/Imagery motor movement,1,17,
exec_right,common/recall_cross_ER.png,2,0,10,1,2018_Oct_01_1901,60.00070496625731,Real/Imagery motor movement,1,17,
exec_left,common/recall_cross_EL.png,2,1,11,0,2018_Oct_01_1901,60.00070496625731,Real/Imagery motor movement,1,17,
imag_third,common/recall_cross_IT.png,2,2,12,4,2018_Oct_01_1901,60.00070496625731,Real/Imagery motor movement,1,17,
img_right,common/recall_cross_IR.png,2,3,13,3,2018_Oct_01_1901,60.00070496625731,Real/Imagery motor movement,1,17,
img_left,common/recall_cross_IL.png,2,4,14,2,2018_Oct_01_1901,60.00070496625731,Real/Imagery motor movement,1,17,
img_right,common/recall_cross_IR.png,3,0,15,3,2018_Oct_01_1901,60.00070496625731,Real/Imagery motor movement,1,17,
imag_third,common/recall_cross_IT.png,3,1,16,4,2018_Oct_01_1901,60.00070496625731,Real/Imagery motor movement,1,17,
img_left,common/recall_cross_IL.png,3,2,17,2,2018_Oct_01_1901,60.00070496625731,Real/Imagery motor movement,1,17,
exec_right,common/recall_cross_ER.png,3,3,18,1,2018_Oct_01_1901,60.00070496625731,Real/Imagery motor movement,1,17,
exec_left,common/recall_cross_EL.png,3,4,19,0,2018_Oct_01_1901,60.00070496625731,Real/Imagery motor movement,1,17,
img_left,common/recall_cross_IL.png,4,0,20,2,2018_Oct_01_1901,60.00070496625731,Real/Imagery motor movement,1,17,
imag_third,common/recall_cross_IT.png,4,1,21,4,2018_Oct_01_1901,60.00070496625731,Real/Imagery motor movement,1,17,
exec_left,common/recall_cross_EL.png,4,2,22,0,2018_Oct_01_1901,60.00070496625731,Real/Imagery motor movement,1,17,
img_right,common/recall_cross_IR.png,4,3,23,3,2018_Oct_01_1901,60.00070496625731,Real/Imagery motor movement,1,17,
exec_right,common/recall_cross_ER.png,4,4,24,1,2018_Oct_01_1901,60.00070496625731,Real/Imagery motor movement,1,17,
img_left,common/recall_cross_IL.png,5,0,25,2,2018_Oct_01_1901,60.00070496625731,Real/Imagery motor movement,1,17,
exec_left,common/recall_cross_EL.png,5,1,26,0,2018_Oct_01_1901,60.00070496625731,Real/Imagery motor movement,1,17,
img_right,common/recall_cross_IR.png,5,2,27,3,2018_Oct_01_1901,60.00070496625731,Real/Imagery motor movement,1,17,
imag_third,common/recall_cross_IT.png,5,3,28,4,2018_Oct_01_1901,60.00070496625731,Real/Imagery motor movement,1,17,
exec_right,common/recall_cross_ER.png,5,4,29,1,2018_Oct_01_1901,60.00070496625731,Real/Imagery motor movement,1,17,
exec_right,common/recall_cross_ER.png,6,0,30,1,2018_Oct_01_1901,60.00070496625731,Real/Imagery motor movement,1,17,
exec_left,common/recall_cross_EL.png,6,1,31,0,2018_Oct_01_1901,60.00070496625731,Real/Imagery motor movement,1,17,
img_left,common/recall_cross_IL.png,6,2,32,2,2018_Oct_01_1901,60.00070496625731,Real/Imagery motor movement,1,17,
imag_third,common/recall_cross_IT.png,6,3,33,4,2018_Oct_01_1901,60.00070496625731,Real/Imagery motor movement,1,17,
img_right,common/recall_cross_IR.png,6,4,34,3,2018_Oct_01_1901,60.00070496625731,Real/Imagery motor movement,1,17,
imag_third,common/recall_cross_IT.png,7,0,35,4,2018_Oct_01_1901,60.00070496625731,Real/Imagery motor movement,1,17,
exec_right,common/recall_cross_ER.png,7,1,36,1,2018_Oct_01_1901,60.00070496625731,Real/Imagery motor movement,1,17,
exec_left,common/recall_cross_EL.png,7,2,37,0,2018_Oct_01_1901,60.00070496625731,Real/Imagery motor movement,1,17,
img_left,common/recall_cross_IL.png,7,3,38,2,2018_Oct_01_1901,60.00070496625731,Real/Imagery motor movement,1,17,
img_right,common/recall_cross_IR.png,7,4,39,3,2018_Oct_01_1901,60.00070496625731,Real/Imagery motor movement,1,17,
imag_third,common/recall_cross_IT.png,8,0,40,4,2018_Oct_01_1901,60.00070496625731,Real/Imagery motor movement,1,17,
img_left,common/recall_cross_IL.png,8,1,41,2,2018_Oct_01_1901,60.00070496625731,Real/Imagery motor movement,1,17,
exec_right,common/recall_cross_ER.png,8,2,42,1,2018_Oct_01_1901,60.00070496625731,Real/Imagery motor movement,1,17,
exec_left,common/recall_cross_EL.png,8,3,43,0,2018_Oct_01_1901,60.00070496625731,Real/Imagery motor movement,1,17,
img_right,common/recall_cross_IR.png,8,4,44,3,2018_Oct_01_1901,60.00070496625731,Real/Imagery motor movement,1,17,
img_left,common/recall_cross_IL.png,9,0,45,2,2018_Oct_01_1901,60.00070496625731,Real/Imagery motor movement,1,17,
exec_right,common/recall_cross_ER.png,9,1,46,1,2018_Oct_01_1901,60.00070496625731,Real/Imagery motor movement,1,17,
imag_third,common/recall_cross_IT.png,9,2,47,4,2018_Oct_01_1901,60.00070496625731,Real/Imagery motor movement,1,17,
exec_left,common/recall_cross_EL.png,9,3,48,0,2018_Oct_01_1901,60.00070496625731,Real/Imagery motor movement,1,17,
img_right,common/recall_cross_IR.png,9,4,49,3,2018_Oct_01_1901,60.00070496625731,Real/Imagery motor movement,1,17,
exec_right,common/recall_cross_ER.png,10,0,50,1,2018_Oct_01_1901,60.00070496625731,Real/Imagery motor movement,1,17,
img_left,common/recall_cross_IL.png,10,1,51,2,2018_Oct_01_1901,60.00070496625731,Real/Imagery motor movement,1,17,
img_right,common/recall_cross_IR.png,10,2,52,3,2018_Oct_01_1901,60.00070496625731,Real/Imagery motor movement,1,17,
exec_left,common/recall_cross_EL.png,10,3,53,0,2018_Oct_01_1901,60.00070496625731,Real/Imagery motor movement,1,17,
imag_third,common/recall_cross_IT.png,10,4,54,4,2018_Oct_01_1901,60.00070496625731,Real/Imagery motor movement,1,17,
img_right,common/recall_cross_IR.png,11,0,55,3,2018_Oct_01_1901,60.00070496625731,Real/Imagery motor movement,1,17,
exec_left,common/recall_cross_EL.png,11,1,56,0,2018_Oct_01_1901,60.00070496625731,Real/Imagery motor movement,1,17,
imag_third,common/recall_cross_IT.png,11,2,57,4,2018_Oct_01_1901,60.00070496625731,Real/Imagery motor movement,1,17,
img_left,common/recall_cross_IL.png,11,3,58,2,2018_Oct_01_1901,60.00070496625731,Real/Imagery motor movement,1,17,
exec_right,common/recall_cross_ER.png,11,4,59,1,2018_Oct_01_1901,60.00070496625731,Real/Imagery motor movement,1,17,
exec_left,common/recall_cross_EL.png,12,0,60,0,2018_Oct_01_1901,60.00070496625731,Real/Imagery motor movement,1,17,
img_left,common/recall_cross_IL.png,12,1,61,2,2018_Oct_01_1901,60.00070496625731,Real/Imagery motor movement,1,17,
img_right,common/recall_cross_IR.png,12,2,62,3,2018_Oct_01_1901,60.00070496625731,Real/Imagery motor movement,1,17,
exec_right,common/recall_cross_ER.png,12,3,63,1,2018_Oct_01_1901,60.00070496625731,Real/Imagery motor movement,1,17,
imag_third,common/recall_cross_IT.png,12,4,64,4,2018_Oct_01_1901,60.00070496625731,Real/Imagery motor movement,1,17,
img_right,common/recall_cross_IR.png,13,0,65,3,2018_Oct_01_1901,60.00070496625731,Real/Imagery motor movement,1,17,
exec_left,common/recall_cross_EL.png,13,1,66,0,2018_Oct_01_1901,60.00070496625731,Real/Imagery motor movement,1,17,
imag_third,common/recall_cross_IT.png,13,2,67,4,2018_Oct_01_1901,60.00070496625731,Real/Imagery motor movement,1,17,
exec_right,common/recall_cross_ER.png,13,3,68,1,2018_Oct_01_1901,60.00070496625731,Real/Imagery motor movement,1,17,
img_left,common/recall_cross_IL.png,13,4,69,2,2018_Oct_01_1901,60.00070496625731,Real/Imagery motor movement,1,17,
imag_third,common/recall_cross_IT.png,14,0,70,4,2018_Oct_01_1901,60.00070496625731,Real/Imagery motor movement,1,17,
img_left,common/recall_cross_IL.png,14,1,71,2,2018_Oct_01_1901,60.00070496625731,Real/Imagery motor movement,1,17,
exec_right,common/recall_cross_ER.png,14,2,72,1,2018_Oct_01_1901,60.00070496625731,Real/Imagery motor movement,1,17,
exec_left,common/recall_cross_EL.png,14,3,73,0,2018_Oct_01_1901,60.00070496625731,Real/Imagery motor movement,1,17,
img_right,common/recall_cross_IR.png,14,4,74,3,2018_Oct_01_1901,60.00070496625731,Real/Imagery motor movement,1,17,
imag_third,common/recall_cross_IT.png,15,0,75,4,2018_Oct_01_1901,60.00070496625731,Real/Imagery motor movement,1,17,
img_right,common/recall_cross_IR.png,15,1,76,3,2018_Oct_01_1901,60.00070496625731,Real/Imagery motor movement,1,17,
img_left,common/recall_cross_IL.png,15,2,77,2,2018_Oct_01_1901,60.00070496625731,Real/Imagery motor movement,1,17,
exec_left,common/recall_cross_EL.png,15,3,78,0,2018_Oct_01_1901,60.00070496625731,Real/Imagery motor movement,1,17,
exec_right,common/recall_cross_ER.png,15,4,79,1,2018_Oct_01_1901,60.00070496625731,Real/Imagery motor movement,1,17,
exec_left,common/recall_cross_EL.png,16,0,80,0,2018_Oct_01_1901,60.00070496625731,Real/Imagery motor movement,1,17,
exec_right,common/recall_cross_ER.png,16,1,81,1,2018_Oct_01_1901,60.00070496625731,Real/Imagery motor movement,1,17,
img_right,common/recall_cross_IR.png,16,2,82,3,2018_Oct_01_1901,60.00070496625731,Real/Imagery motor movement,1,17,
imag_third,common/recall_cross_IT.png,16,3,83,4,2018_Oct_01_1901,60.00070496625731,Real/Imagery motor movement,1,17,
img_left,common/recall_cross_IL.png,16,4,84,2,2018_Oct_01_1901,60.00070496625731,Real/Imagery motor movement,1,17,
img_right,common/recall_cross_IR.png,17,0,85,3,2018_Oct_01_1901,60.00070496625731,Real/Imagery motor movement,1,17,
imag_third,common/recall_cross_IT.png,17,1,86,4,2018_Oct_01_1901,60.00070496625731,Real/Imagery motor movement,1,17,
exec_left,common/recall_cross_EL.png,17,2,87,0,2018_Oct_01_1901,60.00070496625731,Real/Imagery motor movement,1,17,
exec_right,common/recall_cross_ER.png,17,3,88,1,2018_Oct_01_1901,60.00070496625731,Real/Imagery motor movement,1,17,
img_left,common/recall_cross_IL.png,17,4,89,2,2018_Oct_01_1901,60.00070496625731,Real/Imagery motor movement,1,17,
exec_right,common/recall_cross_ER.png,18,0,90,1,2018_Oct_01_1901,60.00070496625731,Real/Imagery motor movement,1,17,
img_left,common/recall_cross_IL.png,18,1,91,2,2018_Oct_01_1901,60.00070496625731,Real/Imagery motor movement,1,17,
exec_left,common/recall_cross_EL.png,18,2,92,0,2018_Oct_01_1901,60.00070496625731,Real/Imagery motor movement,1,17,
imag_third,common/recall_cross_IT.png,18,3,93,4,2018_Oct_01_1901,60.00070496625731,Real/Imagery motor movement,1,17,
img_right,common/recall_cross_IR.png,18,4,94,3,2018_Oct_01_1901,60.00070496625731,Real/Imagery motor movement,1,17,
img_left,common/recall_cross_IL.png,19,0,95,2,2018_Oct_01_1901,60.00070496625731,Real/Imagery motor movement,1,17,
exec_right,common/recall_cross_ER.png,19,1,96,1,2018_Oct_01_1901,60.00070496625731,Real/Imagery motor movement,1,17,
img_right,common/recall_cross_IR.png,19,2,97,3,2018_Oct_01_1901,60.00070496625731,Real/Imagery motor movement,1,17,
imag_third,common/recall_cross_IT.png,19,3,98,4,2018_Oct_01_1901,60.00070496625731,Real/Imagery motor movement,1,17,
exec_left,common/recall_cross_EL.png,19,4,99,0,2018_Oct_01_1901,60.00070496625731,Real/Imagery motor movement,1,17,
