condition,img,ori,trials.thisRepN,trials.thisTrialN,trials.thisN,trials.thisIndex,date,frameRate,expName,Session,Participant,
img_left,common/white.png,180,0,0,0,2,2018_Sep_28_1533,60.000896010889754,Real/Imagery motor movement,1,5,
img_right,common/white.png,0,0,1,1,3,2018_Sep_28_1533,60.000896010889754,Real/Imagery motor movement,1,5,
exec_left,common/red.png,180,0,2,2,0,2018_Sep_28_1533,60.000896010889754,Real/Imagery motor movement,1,5,
exec_right,common/red.png,0,0,3,3,1,2018_Sep_28_1533,60.000896010889754,Real/Imagery motor movement,1,5,
imag_third,common/white.png,270,0,4,4,4,2018_Sep_28_1533,60.000896010889754,Real/Imagery motor movement,1,5,
exec_right,common/red.png,0,1,0,5,1,2018_Sep_28_1533,60.000896010889754,Real/Imagery motor movement,1,5,
exec_left,common/red.png,180,1,1,6,0,2018_Sep_28_1533,60.000896010889754,Real/Imagery motor movement,1,5,
img_left,common/white.png,180,1,2,7,2,2018_Sep_28_1533,60.000896010889754,Real/Imagery motor movement,1,5,
img_right,common/white.png,0,1,3,8,3,2018_Sep_28_1533,60.000896010889754,Real/Imagery motor movement,1,5,
imag_third,common/white.png,270,1,4,9,4,2018_Sep_28_1533,60.000896010889754,Real/Imagery motor movement,1,5,
img_right,common/white.png,0,2,0,10,3,2018_Sep_28_1533,60.000896010889754,Real/Imagery motor movement,1,5,
imag_third,common/white.png,270,2,1,11,4,2018_Sep_28_1533,60.000896010889754,Real/Imagery motor movement,1,5,
exec_left,common/red.png,180,2,2,12,0,2018_Sep_28_1533,60.000896010889754,Real/Imagery motor movement,1,5,
img_left,common/white.png,180,2,3,13,2,2018_Sep_28_1533,60.000896010889754,Real/Imagery motor movement,1,5,
exec_right,common/red.png,0,2,4,14,1,2018_Sep_28_1533,60.000896010889754,Real/Imagery motor movement,1,5,
exec_right,common/red.png,0,3,0,15,1,2018_Sep_28_1533,60.000896010889754,Real/Imagery motor movement,1,5,
img_right,common/white.png,0,3,1,16,3,2018_Sep_28_1533,60.000896010889754,Real/Imagery motor movement,1,5,
exec_left,common/red.png,180,3,2,17,0,2018_Sep_28_1533,60.000896010889754,Real/Imagery motor movement,1,5,
img_left,common/white.png,180,3,3,18,2,2018_Sep_28_1533,60.000896010889754,Real/Imagery motor movement,1,5,
imag_third,common/white.png,270,3,4,19,4,2018_Sep_28_1533,60.000896010889754,Real/Imagery motor movement,1,5,
exec_left,common/red.png,180,4,0,20,0,2018_Sep_28_1533,60.000896010889754,Real/Imagery motor movement,1,5,
img_left,common/white.png,180,4,1,21,2,2018_Sep_28_1533,60.000896010889754,Real/Imagery motor movement,1,5,
img_right,common/white.png,0,4,2,22,3,2018_Sep_28_1533,60.000896010889754,Real/Imagery motor movement,1,5,
imag_third,common/white.png,270,4,3,23,4,2018_Sep_28_1533,60.000896010889754,Real/Imagery motor movement,1,5,
exec_right,common/red.png,0,4,4,24,1,2018_Sep_28_1533,60.000896010889754,Real/Imagery motor movement,1,5,
exec_right,common/red.png,0,5,0,25,1,2018_Sep_28_1533,60.000896010889754,Real/Imagery motor movement,1,5,
exec_left,common/red.png,180,5,1,26,0,2018_Sep_28_1533,60.000896010889754,Real/Imagery motor movement,1,5,
imag_third,common/white.png,270,5,2,27,4,2018_Sep_28_1533,60.000896010889754,Real/Imagery motor movement,1,5,
img_right,common/white.png,0,5,3,28,3,2018_Sep_28_1533,60.000896010889754,Real/Imagery motor movement,1,5,
img_left,common/white.png,180,5,4,29,2,2018_Sep_28_1533,60.000896010889754,Real/Imagery motor movement,1,5,
img_left,common/white.png,180,6,0,30,2,2018_Sep_28_1533,60.000896010889754,Real/Imagery motor movement,1,5,
imag_third,common/white.png,270,6,1,31,4,2018_Sep_28_1533,60.000896010889754,Real/Imagery motor movement,1,5,
img_right,common/white.png,0,6,2,32,3,2018_Sep_28_1533,60.000896010889754,Real/Imagery motor movement,1,5,
exec_right,common/red.png,0,6,3,33,1,2018_Sep_28_1533,60.000896010889754,Real/Imagery motor movement,1,5,
exec_left,common/red.png,180,6,4,34,0,2018_Sep_28_1533,60.000896010889754,Real/Imagery motor movement,1,5,
exec_right,common/red.png,0,7,0,35,1,2018_Sep_28_1533,60.000896010889754,Real/Imagery motor movement,1,5,
img_left,common/white.png,180,7,1,36,2,2018_Sep_28_1533,60.000896010889754,Real/Imagery motor movement,1,5,
imag_third,common/white.png,270,7,2,37,4,2018_Sep_28_1533,60.000896010889754,Real/Imagery motor movement,1,5,
img_right,common/white.png,0,7,3,38,3,2018_Sep_28_1533,60.000896010889754,Real/Imagery motor movement,1,5,
exec_left,common/red.png,180,7,4,39,0,2018_Sep_28_1533,60.000896010889754,Real/Imagery motor movement,1,5,
exec_left,common/red.png,180,8,0,40,0,2018_Sep_28_1533,60.000896010889754,Real/Imagery motor movement,1,5,
img_left,common/white.png,180,8,1,41,2,2018_Sep_28_1533,60.000896010889754,Real/Imagery motor movement,1,5,
exec_right,common/red.png,0,8,2,42,1,2018_Sep_28_1533,60.000896010889754,Real/Imagery motor movement,1,5,
img_right,common/white.png,0,8,3,43,3,2018_Sep_28_1533,60.000896010889754,Real/Imagery motor movement,1,5,
imag_third,common/white.png,270,8,4,44,4,2018_Sep_28_1533,60.000896010889754,Real/Imagery motor movement,1,5,
img_left,common/white.png,180,9,0,45,2,2018_Sep_28_1533,60.000896010889754,Real/Imagery motor movement,1,5,
imag_third,common/white.png,270,9,1,46,4,2018_Sep_28_1533,60.000896010889754,Real/Imagery motor movement,1,5,
exec_left,common/red.png,180,9,2,47,0,2018_Sep_28_1533,60.000896010889754,Real/Imagery motor movement,1,5,
exec_right,common/red.png,0,9,3,48,1,2018_Sep_28_1533,60.000896010889754,Real/Imagery motor movement,1,5,
img_right,common/white.png,0,9,4,49,3,2018_Sep_28_1533,60.000896010889754,Real/Imagery motor movement,1,5,
exec_right,common/red.png,0,10,0,50,1,2018_Sep_28_1533,60.000896010889754,Real/Imagery motor movement,1,5,
exec_left,common/red.png,180,10,1,51,0,2018_Sep_28_1533,60.000896010889754,Real/Imagery motor movement,1,5,
imag_third,common/white.png,270,10,2,52,4,2018_Sep_28_1533,60.000896010889754,Real/Imagery motor movement,1,5,
img_left,common/white.png,180,10,3,53,2,2018_Sep_28_1533,60.000896010889754,Real/Imagery motor movement,1,5,
img_right,common/white.png,0,10,4,54,3,2018_Sep_28_1533,60.000896010889754,Real/Imagery motor movement,1,5,
exec_right,common/red.png,0,11,0,55,1,2018_Sep_28_1533,60.000896010889754,Real/Imagery motor movement,1,5,
img_left,common/white.png,180,11,1,56,2,2018_Sep_28_1533,60.000896010889754,Real/Imagery motor movement,1,5,
img_right,common/white.png,0,11,2,57,3,2018_Sep_28_1533,60.000896010889754,Real/Imagery motor movement,1,5,
imag_third,common/white.png,270,11,3,58,4,2018_Sep_28_1533,60.000896010889754,Real/Imagery motor movement,1,5,
exec_left,common/red.png,180,11,4,59,0,2018_Sep_28_1533,60.000896010889754,Real/Imagery motor movement,1,5,
exec_left,common/red.png,180,12,0,60,0,2018_Sep_28_1533,60.000896010889754,Real/Imagery motor movement,1,5,
img_right,common/white.png,0,12,1,61,3,2018_Sep_28_1533,60.000896010889754,Real/Imagery motor movement,1,5,
exec_right,common/red.png,0,12,2,62,1,2018_Sep_28_1533,60.000896010889754,Real/Imagery motor movement,1,5,
img_left,common/white.png,180,12,3,63,2,2018_Sep_28_1533,60.000896010889754,Real/Imagery motor movement,1,5,
imag_third,common/white.png,270,12,4,64,4,2018_Sep_28_1533,60.000896010889754,Real/Imagery motor movement,1,5,
imag_third,common/white.png,270,13,0,65,4,2018_Sep_28_1533,60.000896010889754,Real/Imagery motor movement,1,5,
exec_left,common/red.png,180,13,1,66,0,2018_Sep_28_1533,60.000896010889754,Real/Imagery motor movement,1,5,
img_left,common/white.png,180,13,2,67,2,2018_Sep_28_1533,60.000896010889754,Real/Imagery motor movement,1,5,
exec_right,common/red.png,0,13,3,68,1,2018_Sep_28_1533,60.000896010889754,Real/Imagery motor movement,1,5,
img_right,common/white.png,0,13,4,69,3,2018_Sep_28_1533,60.000896010889754,Real/Imagery motor movement,1,5,
exec_right,common/red.png,0,14,0,70,1,2018_Sep_28_1533,60.000896010889754,Real/Imagery motor movement,1,5,
img_left,common/white.png,180,14,1,71,2,2018_Sep_28_1533,60.000896010889754,Real/Imagery motor movement,1,5,
img_right,common/white.png,0,14,2,72,3,2018_Sep_28_1533,60.000896010889754,Real/Imagery motor movement,1,5,
imag_third,common/white.png,270,14,3,73,4,2018_Sep_28_1533,60.000896010889754,Real/Imagery motor movement,1,5,
exec_left,common/red.png,180,14,4,74,0,2018_Sep_28_1533,60.000896010889754,Real/Imagery motor movement,1,5,
img_right,common/white.png,0,15,0,75,3,2018_Sep_28_1533,60.000896010889754,Real/Imagery motor movement,1,5,
imag_third,common/white.png,270,15,1,76,4,2018_Sep_28_1533,60.000896010889754,Real/Imagery motor movement,1,5,
exec_right,common/red.png,0,15,2,77,1,2018_Sep_28_1533,60.000896010889754,Real/Imagery motor movement,1,5,
img_left,common/white.png,180,15,3,78,2,2018_Sep_28_1533,60.000896010889754,Real/Imagery motor movement,1,5,
exec_left,common/red.png,180,15,4,79,0,2018_Sep_28_1533,60.000896010889754,Real/Imagery motor movement,1,5,
img_right,common/white.png,0,16,0,80,3,2018_Sep_28_1533,60.000896010889754,Real/Imagery motor movement,1,5,
imag_third,common/white.png,270,16,1,81,4,2018_Sep_28_1533,60.000896010889754,Real/Imagery motor movement,1,5,
exec_left,common/red.png,180,16,2,82,0,2018_Sep_28_1533,60.000896010889754,Real/Imagery motor movement,1,5,
exec_right,common/red.png,0,16,3,83,1,2018_Sep_28_1533,60.000896010889754,Real/Imagery motor movement,1,5,
img_left,common/white.png,180,16,4,84,2,2018_Sep_28_1533,60.000896010889754,Real/Imagery motor movement,1,5,
img_right,common/white.png,0,17,0,85,3,2018_Sep_28_1533,60.000896010889754,Real/Imagery motor movement,1,5,
exec_right,common/red.png,0,17,1,86,1,2018_Sep_28_1533,60.000896010889754,Real/Imagery motor movement,1,5,
exec_left,common/red.png,180,17,2,87,0,2018_Sep_28_1533,60.000896010889754,Real/Imagery motor movement,1,5,
img_left,common/white.png,180,17,3,88,2,2018_Sep_28_1533,60.000896010889754,Real/Imagery motor movement,1,5,
imag_third,common/white.png,270,17,4,89,4,2018_Sep_28_1533,60.000896010889754,Real/Imagery motor movement,1,5,
imag_third,common/white.png,270,18,0,90,4,2018_Sep_28_1533,60.000896010889754,Real/Imagery motor movement,1,5,
exec_right,common/red.png,0,18,1,91,1,2018_Sep_28_1533,60.000896010889754,Real/Imagery motor movement,1,5,
img_left,common/white.png,180,18,2,92,2,2018_Sep_28_1533,60.000896010889754,Real/Imagery motor movement,1,5,
img_right,common/white.png,0,18,3,93,3,2018_Sep_28_1533,60.000896010889754,Real/Imagery motor movement,1,5,
exec_left,common/red.png,180,18,4,94,0,2018_Sep_28_1533,60.000896010889754,Real/Imagery motor movement,1,5,
img_right,common/white.png,0,19,0,95,3,2018_Sep_28_1533,60.000896010889754,Real/Imagery motor movement,1,5,
imag_third,common/white.png,270,19,1,96,4,2018_Sep_28_1533,60.000896010889754,Real/Imagery motor movement,1,5,
img_left,common/white.png,180,19,2,97,2,2018_Sep_28_1533,60.000896010889754,Real/Imagery motor movement,1,5,
exec_right,common/red.png,0,19,3,98,1,2018_Sep_28_1533,60.000896010889754,Real/Imagery motor movement,1,5,
exec_left,common/red.png,180,19,4,99,0,2018_Sep_28_1533,60.000896010889754,Real/Imagery motor movement,1,5,
